Folder: steel-PTFE

File: XPS-C1s.csv
Point6
3
C1s
1
297.8767,1203.33
297.7517,1189.37
297.6267,1134.05
297.5017,1110.87
297.3767,1108.57
297.2517,1073.97
297.1267,1093.81
297.0017,1098.17
296.8767,1098.81
296.7517,1093.49
296.6267,1098.17
296.5017,1077.22
296.3767,1095.63
296.2517,1104.29
296.1267,1127.06
296.0017,1127.46
295.8767,1169.05
295.7517,1173.49
295.6267,1210.32
295.5017,1212.22
295.3767,1212.54
295.2517,1210.56
295.1267,1238.97
295.0017,1250
294.8767,1298.17
294.7517,1362.06
294.6267,1456.43
294.5017,1542.94
294.3767,1638.49
294.2517,1702.62
294.1267,1739.84
294.0017,1845.87
293.8767,1950.32
293.7517,2089.68
293.6267,2292.3
293.5017,2475.56
293.3767,2649.05
293.2517,2907.78
293.1267,3141.67
293.0017,3472.46
292.8767,3878.97
292.7517,4325.4
292.6267,4881.98
292.5017,5537.78
292.3767,6228.09
292.2517,6955.4
292.1267,7732.06
292.0017,8503.57
291.8767,9173.17
291.7517,9683.57
291.6267,9989.21
291.5017,9972.7
291.3767,9657.86
291.2517,9126.19
291.1267,8380.95
291.0017,7483.49
290.8767,6517.7
290.7517,5562.46
290.6267,4663.17
290.5017,3936.11
290.3767,3361.03
290.2517,2917.78
290.1267,2583.89
290.0017,2386.19
289.8767,2256.9
289.7517,2207.62
289.6267,2100.79
289.5017,2090.4
289.3767,2092.54
289.2517,2099.76
289.1267,2089.52
289.0017,2101.19
288.8767,2051.59
288.7517,2035.71
288.6267,2003.02
288.5017,1948.49
288.3767,1886.9
288.2517,1849.68
288.1267,1807.14
288.0017,1796.27
287.8767,1775.79
287.7517,1756.35
287.6267,1730.48
287.5017,1722.22
287.3767,1716.27
287.2517,1727.46
287.1267,1758.65
287.0017,1796.11
286.8767,1794.6
286.7517,1778.25
286.6267,1763.81
286.5017,1749.29
286.3767,1792.22
286.2517,1805.63
286.1267,1783.1
286.0017,1774.68
285.8767,1790.48
285.7517,1828.57
285.6267,1928.81
285.5017,2001.35
285.3767,2050.4
285.2517,2149.92
285.1267,2245.4
285.0017,2350.08
284.8767,2469.13
284.7517,2473.57
284.6267,2456.51
284.5017,2387.46
284.3767,2305.32
284.2517,2220.63
284.1267,2119.05
284.0017,1978.41
283.8767,1848.17
283.7517,1681.19
283.6267,1558.89
283.5017,1421.43
283.3767,1296.98
283.2517,1208.17
283.1267,1108.97
283.0017,1054.68
282.8767,1028.97
282.7517,998.2539
282.6267,980.2381
282.5017,970.7936
282.3767,957.3809
282.2517,941.5079
282.1267,937.0634
282.0017,934.3650
281.8767,922.6984
281.7517,920.9523
281.6267,927.0634
281.5017,936.4285
281.3767,926.9841
281.2517,931.1904
281.1267,919.7619
281.0017,923.6508
280.8767,928.2539
280.7517,941.7460
280.6267,927.7777
280.5017,922.4603
280.3767,924.4444
280.2517,922.5396
280.1267,924.4444
280.0017,928.2539
279.8767,928.8095
279.7517,927.8571
279.6267,940.7936
279.5017,930.7936
279.3767,933.7301
279.2517,941.9841
279.1267,922.8571
279.0017,885.4761
278.8767,898.7301
278.7517,904.1270
278.6267,923.8889
278.5017,932.0635
278.3767,931.3492
278.2517,902.6190
278.1267,908.0952
278.0017,899.7619
277.8767,863.3333

File: XPS-Cr2p.csv
Point6
3
Cr2p
1
606.7517,1984.71
606.5017,1983.72
606.2517,1972.07
606.0017,1966.33
605.7517,1970.48
605.5017,1967.24
605.2517,1971.97
605.0017,1980.51
604.7517,1975.78
604.5017,1977.86
604.2517,1987.05
604.0017,1986.72
603.7517,1988.9
603.5017,1976.32
603.2517,1966.12
603.0017,1965.11
602.7517,1968.58
602.5017,1976.53
602.2517,1973.28
602.0017,1965.1
601.7517,1969.71
601.5017,1964.02
601.2517,1961.83
601.0017,1971.92
600.7517,1960.21
600.5017,1959.97
600.2517,1965.99
600.0017,1959.43
599.7517,1955.98
599.5017,1968.37
599.2517,1975.26
599.0017,1968.96
598.7517,1973.19
598.5017,1969.32
598.2517,1974.96
598.0017,1976.62
597.7517,1986.38
597.5017,1989.73
597.2517,1964.05
597.0017,1958.48
596.7517,1956.24
596.5017,1950.01
596.2517,1964.19
596.0017,1975.33
595.7517,1962.49
595.5017,1948.57
595.2517,1950.95
595.0017,1945.71
594.7517,1939.25
594.5017,1939.93
594.2517,1949.45
594.0017,1950.35
593.7517,1948.08
593.5017,1940.03
593.2517,1934.89
593.0017,1943.18
592.7517,1931.5
592.5017,1928.44
592.2517,1941.27
592.0017,1955.12
591.7517,1952.04
591.5017,1941.11
591.2517,1955.28
591.0017,1945.52
590.7517,1949.12
590.5017,1949.34
590.2517,1952.68
590.0017,1965.52
589.7517,1961.33
589.5017,1975.35
589.2517,1973.46
589.0017,1978.12
588.7517,1987.13
588.5017,2000.62
588.2517,1998.75
588.0017,2003.45
587.7517,2020.16
587.5017,2032.44
587.2517,2044.86
587.0017,2038.62
586.7517,2049.49
586.5017,2063.68
586.2517,2052.19
586.0017,2020.7
585.7517,2025.51
585.5017,2027.27
585.2517,1992.45
585.0017,1963.31
584.7517,1936.95
584.5017,1941.02
584.2517,1948.37
584.0017,1938.45
583.7517,1915.62
583.5017,1918.88
583.2517,1922.06
583.0017,1915.31
582.7517,1920.18
582.5017,1912.6
582.2517,1914.3
582.0017,1923.82
581.7517,1922.73
581.5017,1922.11
581.2517,1910.88
581.0017,1923.52
580.7517,1941.47
580.5017,1935.39
580.2517,1928.12
580.0017,1937.77
579.7517,1933.65
579.5017,1940.81
579.2517,1966.96
579.0017,1972.49
578.7517,1989.9
578.5017,1995
578.2517,2021.34
578.0017,2056.83
577.7517,2070.97
577.5017,2089.07
577.2517,2118.27
577.0017,2129.11
576.7517,2122.27
576.5017,2114.11
576.2517,2093.85
576.0017,2078.31
575.7517,2046.38
575.5017,1986.12
575.2517,1946.22
575.0017,1908.62
574.7517,1884.23
574.5017,1885.28
574.2517,1886.89
574.0017,1875.83
573.7517,1861.69
573.5017,1860.12
573.2517,1852.78
573.0017,1865.92
572.7517,1862.55
572.5017,1847.15
572.2517,1847.43
572.0017,1851.59
571.7517,1853.03
571.5017,1858.09
571.2517,1845.87
571.0017,1842.23
570.7517,1848.39
570.5017,1846.4
570.2517,1841.17
570.0017,1837.51
569.7517,1849.75
569.5017,1844.78
569.2517,1840.62
569.0017,1842.26
568.7517,1843.52
568.5017,1852.43
568.2517,1842.79
568.0017,1834.66
567.7517,1850.93
567.5017,1848.14
567.2517,1834.12
567.0017,1841.56
566.8767,1856.33

File: XPS-F1s.csv
Point6
3
F1s
1
699.8767,3443.33
699.7517,3399.05
699.6267,3347.86
699.5017,3343.97
699.3767,3336.83
699.2517,3263.02
699.1267,3170.32
699.0017,3115.08
698.8767,3091.27
698.7517,3104.84
698.6267,3128.97
698.5017,3103.49
698.3767,3055.95
698.2517,3014.76
698.1267,3017.54
698.0017,3028.57
697.8767,3056.59
697.7517,3067.46
697.6267,3092.94
697.5017,3081.83
697.3767,3071.51
697.2517,3045.08
697.1267,2979.44
697.0017,2910.4
696.8767,2900.56
696.7517,2899.84
696.6267,2891.59
696.5017,2910.71
696.3767,2906.03
696.2517,2878.1
696.1267,2834.44
696.0017,2816.98
695.8767,2774.76
695.7517,2739.92
695.6267,2713.97
695.5017,2704.92
695.3767,2677.22
695.2517,2687.06
695.1267,2683.57
695.0017,2649.13
694.8767,2596.43
694.7517,2596.67
694.6267,2610.56
694.5017,2621.98
694.3767,2621.67
694.2517,2590.4
694.1267,2591.51
694.0017,2629.13
693.8767,2688.41
693.7517,2716.83
693.6267,2746.51
693.5017,2723.81
693.3767,2689.36
693.2517,2702.38
693.1267,2753.1
693.0017,2840.56
692.8767,2958.49
692.7517,3076.67
692.6267,3173.81
692.5017,3296.83
692.3767,3486.75
692.2517,3712.86
692.1267,3889.6
692.0017,4155.87
691.8767,4490.63
691.7517,4866.03
691.6267,5425.24
691.5017,6022.54
691.3767,6696.35
691.2517,7565
691.1267,8580.08
691.0017,9801.67
690.8767,11351.7
690.7517,13115.6
690.6267,15223.7
690.5017,17653.6
690.3767,20288.3
690.2517,23263.6
690.1267,26766.5
690.0017,30437.9
689.8767,34367.7
689.7517,38591.1
689.6267,42837.5
689.5017,46791.5
689.3767,50569.3
689.2517,53878.3
689.1267,56474
689.0017,58291.6
688.8767,59119.9
688.7517,58546.5
688.6267,56915.6
688.5017,54340.6
688.3767,50932.4
688.2517,46666.1
688.1267,41905.5
688.0017,36851.8
687.8767,32000.7
687.7517,27336.7
687.6267,23180.8
687.5017,19465.5
687.3767,16217.5
687.2517,13575.3
687.1267,11470.9
687.0017,9709.36
686.8767,8311.75
686.7517,7300
686.6267,6448.65
686.5017,5873.02
686.3767,5363.65
686.2517,4928.73
686.1267,4576.03
686.0017,4305.08
685.8767,4056.19
685.7517,3851.27
685.6267,3752.54
685.5017,3700.24
685.3767,3635.95
685.2517,3543.81
685.1267,3416.83
685.0017,3228.25
684.8767,3122.7
684.7517,3015.4
684.6267,2921.59
684.5017,2839.36
684.3767,2738.89
684.2517,2672.3
684.1267,2629.84
684.0017,2560.4
683.8767,2493.49
683.7517,2429.52
683.6267,2319.92
683.5017,2297.38
683.3767,2330.56
683.2517,2305.63
683.1267,2273.65
683.0017,2218.57
682.8767,2115.87
682.7517,2090.24
682.6267,2108.25
682.5017,2088.81
682.3767,2083.17
682.2517,2090.71
682.1267,2099.13
682.0017,2105.95
681.8767,2065.87
681.7517,2020.63
681.6267,1991.9
681.5017,1985.79
681.3767,2034.44
681.2517,2020.4
681.1267,2010.63
681.0017,2020
680.8767,2026.03
680.7517,2012.78
680.6267,2033.89
680.5017,1963.81
680.3767,1966.59
680.2517,1959.29
680.1267,1961.11
680.0017,2008.02
679.8767,2045

Point6
3
Fe2p
1
739.7517,7440.27
739.5017,7453.71
739.2517,7456.88
739.0017,7464.33
738.7517,7471.95
738.5017,7467.92
738.2517,7466.49
738.0017,7470.19
737.7517,7442.53
737.5017,7427.74
737.2517,7459.65
737.0017,7464.52
736.7517,7437.76
736.5017,7460.75
736.2517,7448.78
736.0017,7442.01
735.7517,7439.24
735.5017,7422.3
735.2517,7438.01
735.0017,7417.87
734.7517,7396.56
734.5017,7389.75
734.2517,7374.55
734.0017,7370.69
733.7517,7357.03
733.5017,7329.25
733.2517,7304.75
733.0017,7301.35
732.7517,7299.84
732.5017,7287.72
732.2517,7259.15
732.0017,7231.21
731.7517,7227.96
731.5017,7203.12
731.2517,7190.5
731.0017,7169.22
730.7517,7179.75
730.5017,7178.13
730.2517,7155.77
730.0017,7150.13
729.7517,7132.3
729.5017,7138.32
729.2517,7127.69
729.0017,7122.63
728.7517,7130.88
728.5017,7170.77
728.2517,7197.69
728.0017,7202.43
727.7517,7232.9
727.5017,7243.65
727.2517,7272.54
727.0017,7328.46
726.7517,7346.03
726.5017,7373.04
726.2517,7403.25
726.0017,7428.31
725.7517,7477.56
725.5017,7504.8
725.2517,7524.6
725.0017,7561.05
724.7517,7584.08
724.5017,7598.59
724.2517,7604.25
724.0017,7579.75
723.7517,7568.82
723.5017,7588.99
723.2517,7574.02
723.0017,7562.2
722.7517,7560.57
722.5017,7565.71
722.2517,7591.9
722.0017,7592.02
721.7517,7601.46
721.5017,7622.16
721.2517,7657.68
721.0017,7693.24
720.7517,7716.53
720.5017,7751.72
720.2517,7767.79
720.0017,7773.62
719.7517,7806.73
719.5017,7794.99
719.2517,7792.51
719.0017,7799.56
718.7517,7780.87
718.5017,7778.21
718.2517,7756.11
718.0017,7708.64
717.7517,7684.56
717.5017,7688.25
717.2517,7677.48
717.0017,7668.93
716.7517,7662.92
716.5017,7653.14
716.2517,7671.65
716.0017,7665.58
715.7517,7659.29
715.5017,7669.34
715.2517,7651.61
715.0017,7652.65
714.7517,7659.46
714.5017,7671.09
714.2517,7710.01
714.0017,7705.48
713.7517,7711.22
713.5017,7751.15
713.2517,7776.73
713.0017,7811.33
712.7517,7834.39
712.5017,7890.02
712.2517,7943.75
712.0017,7953.38
711.7517,7987.94
711.5017,7998.21
711.2517,7989.37
711.0017,7963.17
710.7517,7890.19
710.5017,7794.92
710.2517,7659.91
710.0017,7482.59
709.7517,7290.26
709.5017,7093.62
709.2517,6876.52
709.0017,6685.14
708.7517,6535.63
708.5017,6383.79
708.2517,6248.73
708.0017,6129.89
707.7517,6038.6
707.5017,5944.73
707.2517,5861.2
707.0017,5808.77
706.7517,5748.11
706.5017,5705.04
706.2517,5676.74
706.0017,5621.25
705.7517,5561.02
705.5017,5488.52
705.2517,5401.83
705.0017,5333.56
704.7517,5231.31
704.5017,5119.82
704.2517,5010.4
704.0017,4909.1
703.7517,4815.46
703.5017,4674.19
703.2517,4561.78
703.0017,4479.84
702.7517,4397.69
702.5017,4317.95
702.2517,4236.09
702.0017,4155.41
701.7517,4086.42
701.5017,4029.54
701.2517,3961.59
701.0017,3878.49
700.7517,3805.83
700.5017,3721.27
700.2517,3623.28
700.0017,3518.5
699.8767,3470.17

File: XPS-Fe3p.csv
Point6
3
Fe3p
1
67.8767,749.7083
67.7517,745.3115
67.6267,743.3631
67.5017,745.3254
67.3767,749.0794
67.2517,748.8512
67.1267,747.7996
67.0017,746.8730
66.8767,748.5099
66.7517,749.2778
66.6267,752.0040
66.5017,749.9385
66.3767,750.1508
66.2517,751.4067
66.1267,753.2480
66.0017,753.2520
65.8767,755.1032
65.7517,755.2540
65.6267,759.3016
65.5017,757.9028
65.3767,760.6131
65.2517,762.0179
65.1267,762.8750
65.0017,761.9405
64.8767,762.5992
64.7517,755.0536
64.6267,755.2976
64.5017,758.8730
64.3767,759.5357
64.2517,761.5417
64.1267,763.9643
64.0017,760.3829
63.8767,757.6012
63.7517,759.3353
63.6267,758.4385
63.5017,759.6726
63.3767,761.4008
63.2517,760.9147
63.1267,758.5794
63.0017,760.1607
62.8767,758.3790
62.7517,758.4286
62.6267,757.1945
62.5017,757.9206
62.3767,757.2282
62.2517,759.2460
62.1267,754.2441
62.0017,752.1964
61.8767,751.6865
61.7517,757.0040
61.6267,757.7976
61.5017,759.8313
61.3767,762.9048
61.2517,761.9444
61.1267,763.9365
61.0017,767.7421
60.8767,765.8413
60.7517,767.3631
60.6267,768.3472
60.5017,766.7877
60.3767,769.3611
60.2517,773.2103
60.1267,779.0913
60.0017,785.9286
59.8767,788.3849
59.7517,791.7639
59.6267,798.1091
59.5017,802.2083
59.3767,810.0992
59.2517,810.8591
59.1267,816.2103
59.0017,821.3155
58.8767,828.7282
58.7517,839.6766
58.6267,850.3770
58.5017,854.2659
58.3767,864.6111
58.2517,875.4167
58.1267,887.4266
58.0017,901.7143
57.8767,913.8056
57.7517,924.7480
57.6267,938.8671
57.5017,954.4583
57.3767,973.1012
57.2517,992.1786
57.1267,1011.44
57.0017,1025.7
56.8767,1039.36
56.7517,1053.82
56.6267,1069.51
56.5017,1087.45
56.3767,1104.44
56.2517,1113.92
56.1267,1118
56.0017,1120.89
55.8767,1117.48
55.7517,1109.3
55.6267,1100.66
55.5017,1087.02
55.3767,1066.71
55.2517,1044.48
55.1267,1018.08
55.0017,982.6290
54.8767,946.9940
54.7517,910.1746
54.6267,874.0952
54.5017,837.4921
54.3767,806.5437
54.2517,775.6567
54.1267,744.6627
54.0017,720.0397
53.8767,701.4663
53.7517,681.4187
53.6267,666.9504
53.5017,655.0099
53.3767,639.5437
53.2517,628.3988
53.1267,620.5218
53.0017,608.2460
52.8767,602.0992
52.7517,594.5992
52.6267,581.9207
52.5017,572.3730
52.3767,563.5476
52.2517,553.6885
52.1267,551.3353
52.0017,545.2897
51.8767,536.9405
51.7517,532.7163
51.6267,525.0139
51.5017,519.6389
51.3767,516.4861
51.2517,512.1528
51.1267,508.8333
51.0017,507.6151
50.8767,502.7818
50.7517,499.5794
50.6267,495.6270
50.5017,495.6984
50.3767,497.4702
50.2517,498.2480
50.1267,493.0635
50.0017,487.6944
49.8767,481.9008
49.7517,481.8988
49.6267,482.5833
49.5017,483.8710
49.3767,481.2421
49.2517,480.6488
49.1267,477.5238
49.0017,476.7560
48.8767,475.1349
48.7517,473.3333
48.6267,471.7440
48.5017,469.2857
48.3767,464.2063
48.2517,460.0218
48.1267,456.5218
48.0017,455.3036
47.8767,455.6667

File: XPS-O1s.csv
Point6
3
O1s
1
544.8767,1758.89
544.7517,1755.32
544.6267,1757.65
544.5017,1742.99
544.3767,1754.95
544.2517,1742.65
544.1267,1723.49
544.0017,1724.92
543.8767,1734.68
543.7517,1723.99
543.6267,1735.13
543.5017,1706.67
543.3767,1696.16
543.2517,1708.55
543.1267,1732.12
543.0017,1727.14
542.8767,1728.68
542.7517,1705.32
542.6267,1701.3
542.5017,1709.26
542.3767,1705.95
542.2517,1702.38
542.1267,1711.9
542.0017,1689.97
541.8767,1665.79
541.7517,1659.66
541.6267,1660.71
541.5017,1681.75
541.3767,1680.42
541.2517,1682.01
541.1267,1666.38
541.0017,1671.8
540.8767,1680.16
540.7517,1675.9
540.6267,1651.27
540.5017,1646.75
540.3767,1623.73
540.2517,1632.14
540.1267,1639.87
540.0017,1650.19
539.8767,1662.14
539.7517,1662.28
539.6267,1649.66
539.5017,1648.15
539.3767,1652.49
539.2517,1667.83
539.1267,1670.05
539.0017,1659.87
538.8767,1636.14
538.7517,1614.63
538.6267,1612.62
538.5017,1627.04
538.3767,1641.14
538.2517,1651.3
538.1267,1637.96
538.0017,1644.39
537.8767,1661.72
537.7517,1659.68
537.6267,1653.7
537.5017,1661.43
537.3767,1635.26
537.2517,1633.12
537.1267,1651.69
537.0017,1653.84
536.8767,1657.17
536.7517,1679.34
536.6267,1661.43
536.5017,1657.3
536.3767,1657.65
536.2517,1653.04
536.1267,1636.83
536.0017,1649.5
535.8767,1648.04
535.7517,1660.4
535.6267,1686.11
535.5017,1682.41
535.3767,1682.96
535.2517,1706.75
535.1267,1703.55
535.0017,1709.05
534.8767,1735.58
534.7517,1730.34
534.6267,1723.65
534.5017,1736.3
534.3767,1741.9
534.2517,1759.63
534.1267,1787.09
534.0017,1797.54
533.8767,1799.18
533.7517,1820.05
533.6267,1836.93
533.5017,1869.07
533.3767,1891.77
533.2517,1905.58
533.1267,1913.89
533.0017,1943.23
532.8767,1972.33
532.7517,2024.31
532.6267,2074.1
532.5017,2114.97
532.3767,2172.33
532.2517,2228.57
532.1267,2305.95
532.0017,2376.75
531.8767,2467.38
531.7517,2567.17
531.6267,2679.52
531.5017,2746.88
531.3767,2824.42
531.2517,2868.65
531.1267,2935.03
531.0017,3008.76
530.8767,3087.17
530.7517,3174.31
530.6267,3272.14
530.5017,3358.31
530.3767,3429.13
530.2517,3452.33
530.1267,3426.22
530.0017,3375.9
529.8767,3268.25
529.7517,3123.15
529.6267,2928.2
529.5017,2720.58
529.3767,2495.58
529.2517,2298.94
529.1267,2110.13
529.0017,1958.89
528.8767,1840.77
528.7517,1767.22
528.6267,1717.3
528.5017,1672.17
528.3767,1624.52
528.2517,1588.86
528.1267,1568.36
528.0017,1550.32
527.8767,1557.01
527.7517,1558.89
527.6267,1557.88
527.5017,1562.12
527.3767,1541.08
527.2517,1517.8
527.1267,1521.43
527.0017,1518.1
526.8767,1518.57
526.7517,1528.07
526.6267,1523.2
526.5017,1537.41
526.3767,1554.76
526.2517,1564.37
526.1267,1553.28
526.0017,1537.25
525.8767,1527.91
525.7517,1532.41
525.6267,1522.88
525.5017,1527.62
525.3767,1510.13
525.2517,1518.84
525.1267,1530.98
525.0017,1505.32
524.8767,1466.11